{
  "resourceType": "DiagnosticReport",
  "id": "ef913e16-8e41-47a0-9eb4-8835cc80b73f",
  "contained": [
    {
      "resourceType": "Patient",
      "id": "16e07051-c8e4-4c83-84d9-abe52d1b52fd",
      "identifier": [
        {
          "use": "usual",
          "type": {
            "coding": [
              {
                "system": "http://terminology.hl7.org/CodeSystem/v2-0203",
                "code": "MR",
                "display": "Medical record number"
              }
            ]
          },
          "value": "10.4688"
        }
      ]
    },
    {
      "resourceType": "ImagingStudy",
      "id": "412cbeb9-6355-4cbb-bc1a-7a36a2db3972",
      "identifier": [
        {
          "use": "usual",
          "type": {
            "coding": [
              {
                "system": "http://terminology.hl7.org/CodeSystem/v2-0203",
                "code": "ACSN",
                "display": "Accession ID"
              }
            ]
          },
          "value": "REQYAV8GFELBSCUB"
        }
      ],
      "status": "available",
      "subject": {
        "reference": "#16e07051-c8e4-4c83-84d9-abe52d1b52fd"
      },
      "procedureCode": [
        {
          "coding": [
            {
              "system": "http://snomed.info/sct",
              "code": "399208008",
              "display": "Chest x-ray"
            },
            {
              "system": "http://loinc.org",
              "code": "36643-5",
              "display": "XR Chest 2V"
            }
          ],
          "text": "Chest X-ray"
        }
      ]
    },
    {
      "resourceType": "Device",
      "id": "6fe18ad6-e1a0-45dd-838a-3393b0ac9b2a",
      "manufacturer": "annalise.ai",
      "deviceName": [
        {
          "name": "annalise-cxr-analytics",
          "type": "model-name"
        }
      ],
      "modelNumber": "annalise-cxr-analytics",
      "version": [
        {
          "value": "1.0"
        }
      ]
    },
    {
      "resourceType": "Observation",
      "id": "eae26a1f-9128-48be-b309-f18ca1397c81",
      "status": "final",
      "code": {
        "coding": [
          {
            "system": "https://www.annalise.ai/guides",
            "code": "unfolded_aorta",
            "display": "Unfolded aorta"
          }
        ],
        "text": "Unfolded aorta"
      },
      "effectiveDateTime": "2024-02-26T14:05:03.611000+00:00",
      "valueCodeableConcept": {
        "coding": [
          {
            "system": "http://radlex.org",
            "code": "RID28472",
            "display": "present"
          }
        ],
        "text": "present"
      },
      "note": [
        {
          "text": "Unfolded aorta is present"
        }
      ],
      "bodySite": {
        "coding": [
          {
            "system": "http://radlex.org",
            "code": "RID879",
            "display": "thoracic aorta"
          }
        ]
      },
      "derivedFrom": [
        {
          "reference": "#412cbeb9-6355-4cbb-bc1a-7a36a2db3972"
        }
      ],
      "component": [
        {
          "code": {
            "coding": [
              {
                "system": "http://radlex.org",
                "code": "RID28472",
                "display": "present"
              }
            ]
          },
          "valueString": "present"
        },
        {
          "code": {
            "coding": [
              {
                "system": "http://radlex.org",
                "code": "RID33",
                "display": "probably"
              }
            ]
          },
          "valueQuantity": {
            "value": 62.13485135371555,
            "unit": "percent",
            "system": "http://unitsofmeasure.org"
          }
        },
        {
          "code": {
            "coding": [
              {
                "system": "http://dicom.nema.org/resources/ontology/DCM",
                "code": "110180",
                "display": "Study Instance UID"
              }
            ]
          },
          "valueString": "1.2.826.0.1.3680043.8.498.29787505795955088203375994549087229509"
        },
        {
          "code": {
            "coding": [
              {
                "system": "http://dicom.nema.org/resources/ontology/DCM",
                "code": "112039",
                "display": "Tracking Identifier"
              }
            ]
          },
          "valueString": "64a439ba-7888-45d4-8692-6404b7200584"
        },
        {
          "code": {
            "coding": [
              {
                "system": "http://dicom.nema.org/resources/ontology/DCM",
                "code": "112040",
                "display": "Tracking Unique Identifier"
              }
            ]
          },
          "valueString": "1.2.36.1.2001.1005.78.499560801400981593895454622529006952353980"
        },
        {
          "code": {
            "coding": [
              {
                "system": "http://snomed.info/sct",
                "code": "260870009",
                "display": "Priority"
              }
            ]
          },
          "valueInteger": 2
        },
        {
          "code": {
            "coding": [
              {
                "system": "http://snomed.info/sct",
                "code": "734841007",
                "display": "Name"
              }
            ]
          },
          "valueString": "urgent"
        },
        {
          "code": {
            "coding": [
              {
                "system": "http://snomed.info/sct",
                "code": "272126005",
                "display": "Order values"
              }
            ]
          },
          "valueInteger": 42
        },
        {
          "code": {
            "coding": [
              {
                "system": "http://snomed.info/sct",
                "code": "261586004",
                "display": "Groups"
              }
            ]
          },
          "valueString": "3/TECHNICAL/3"
        },
        {
          "code": {
            "coding": [
              {
                "system": "http://dicom.nema.org/resources/ontology/DCM",
                "code": "121106",
                "display": "Comment"
              }
            ]
          },
          "valueString": "Widening of the aortic curve while maintaining a normal aortic diameter."
        },
        {
          "code": {
            "coding": [
              {
                "system": "http://snomed.info/sct",
                "code": "118589004",
                "display": "Threshold"
              }
            ]
          },
          "valueQuantity": {
            "value": 0.6,
            "unit": "1",
            "system": "http://unitsofmeasure.org",
            "code": "1"
          }
        },
        {
          "code": {
            "coding": [
              {
                "system": "http://snomed.info/sct",
                "code": "386136009",
                "display": "Standard deviation"
              }
            ]
          },
          "valueQuantity": {
            "value": 0.029647657324490623,
            "unit": "1",
            "system": "http://unitsofmeasure.org",
            "code": "1"
          }
        }
      ]
    },
    {
      "resourceType": "Observation",
      "id": "5c6123fb-1ecd-4f3f-ade1-04318a4a67f6",
      "status": "final",
      "code": {
        "coding": [
          {
            "system": "https://www.annalise.ai/guides",
            "code": "aortic_arch_calcification",
            "display": "Aortic arch calcification"
          }
        ],
        "text": "Aortic arch calcification"
      },
      "effectiveDateTime": "2024-02-26T14:05:03.613000+00:00",
      "valueCodeableConcept": {
        "coding": [
          {
            "system": "http://radlex.org",
            "code": "RID28472",
            "display": "present"
          }
        ],
        "text": "present"
      },
      "note": [
        {
          "text": "Aortic arch calcification is present"
        }
      ],
      "bodySite": {
        "coding": [
          {
            "system": "http://radlex.org",
            "code": "RID581",
            "display": "aortic arch"
          }
        ]
      },
      "derivedFrom": [
        {
          "reference": "#412cbeb9-6355-4cbb-bc1a-7a36a2db3972"
        }
      ],
      "component": [
        {
          "code": {
            "coding": [
              {
                "system": "http://radlex.org",
                "code": "RID28472",
                "display": "present"
              }
            ]
          },
          "valueString": "present"
        },
        {
          "code": {
            "coding": [
              {
                "system": "http://radlex.org",
                "code": "RID33",
                "display": "probably"
              }
            ]
          },
          "valueQuantity": {
            "value": 68.73103805923047,
            "unit": "percent",
            "system": "http://unitsofmeasure.org"
          }
        },
        {
          "code": {
            "coding": [
              {
                "system": "http://dicom.nema.org/resources/ontology/DCM",
                "code": "110180",
                "display": "Study Instance UID"
              }
            ]
          },
          "valueString": "1.2.826.0.1.3680043.8.498.29787505795955088203375994549087229509"
        },
        {
          "code": {
            "coding": [
              {
                "system": "http://dicom.nema.org/resources/ontology/DCM",
                "code": "112039",
                "display": "Tracking Identifier"
              }
            ]
          },
          "valueString": "2e1e039b-d9d6-4c69-b511-a788472b88d5"
        },
        {
          "code": {
            "coding": [
              {
                "system": "http://dicom.nema.org/resources/ontology/DCM",
                "code": "112040",
                "display": "Tracking Unique Identifier"
              }
            ]
          },
          "valueString": "1.2.36.1.2001.1005.78.124399471932477821925839885565251084958274"
        },
        {
          "code": {
            "coding": [
              {
                "system": "http://snomed.info/sct",
                "code": "260870009",
                "display": "Priority"
              }
            ]
          },
          "valueInteger": 2
        },
        {
          "code": {
            "coding": [
              {
                "system": "http://snomed.info/sct",
                "code": "734841007",
                "display": "Name"
              }
            ]
          },
          "valueString": "urgent"
        },
        {
          "code": {
            "coding": [
              {
                "system": "http://snomed.info/sct",
                "code": "272126005",
                "display": "Order values"
              }
            ]
          },
          "valueInteger": 44
        },
        {
          "code": {
            "coding": [
              {
                "system": "http://snomed.info/sct",
                "code": "261586004",
                "display": "Groups"
              }
            ]
          },
          "valueString": "3/TECHNICAL/3"
        },
        {
          "code": {
            "coding": [
              {
                "system": "http://dicom.nema.org/resources/ontology/DCM",
                "code": "121106",
                "display": "Comment"
              }
            ]
          },
          "valueString": "Calcification of the aortic arch. Does not include mitral valve calcification, descending aortic or pericardial calcification. Only includes Grade 2 or 3 calcification i.e. thick calcification."
        },
        {
          "code": {
            "coding": [
              {
                "system": "http://snomed.info/sct",
                "code": "118589004",
                "display": "Threshold"
              }
            ]
          },
          "valueQuantity": {
            "value": 0.5,
            "unit": "1",
            "system": "http://unitsofmeasure.org",
            "code": "1"
          }
        },
        {
          "code": {
            "coding": [
              {
                "system": "http://snomed.info/sct",
                "code": "386136009",
                "display": "Standard deviation"
              }
            ]
          },
          "valueQuantity": {
            "value": 0.014757497275100995,
            "unit": "1",
            "system": "http://unitsofmeasure.org",
            "code": "1"
          }
        }
      ]
    },
    {
      "resourceType": "Observation",
      "id": "851d59f2-aed1-4279-876d-b40305d12fa1",
      "status": "final",
      "code": {
        "coding": [
          {
            "system": "https://www.annalise.ai/guides",
            "code": "focal_airspace_opacity",
            "display": "Focal airspace opacity"
          }
        ],
        "text": "Focal airspace opacity"
      },
      "effectiveDateTime": "2024-02-26T14:05:03.614000+00:00",
      "valueCodeableConcept": {
        "coding": [
          {
            "system": "http://radlex.org",
            "code": "RID28472",
            "display": "present"
          }
        ],
        "text": "present"
      },
      "note": [
        {
          "text": "Focal airspace opacity is present"
        }
      ],
      "bodySite": {
        "coding": [
          {
            "system": "http://radlex.org",
            "code": "RID1301",
            "display": "lung"
          }
        ]
      },
      "derivedFrom": [
        {
          "reference": "#412cbeb9-6355-4cbb-bc1a-7a36a2db3972"
        }
      ],
      "component": [
        {
          "code": {
            "coding": [
              {
                "system": "http://radlex.org",
                "code": "RID28472",
                "display": "present"
              }
            ]
          },
          "valueString": "present"
        },
        {
          "code": {
            "coding": [
              {
                "system": "http://radlex.org",
                "code": "RID33",
                "display": "probably"
              }
            ]
          },
          "valueQuantity": {
            "value": 51.66042416091021,
            "unit": "percent",
            "system": "http://unitsofmeasure.org"
          }
        },
        {
          "code": {
            "coding": [
              {
                "system": "http://dicom.nema.org/resources/ontology/DCM",
                "code": "110180",
                "display": "Study Instance UID"
              }
            ]
          },
          "valueString": "1.2.826.0.1.3680043.8.498.29787505795955088203375994549087229509"
        },
        {
          "code": {
            "coding": [
              {
                "system": "http://dicom.nema.org/resources/ontology/DCM",
                "code": "112039",
                "display": "Tracking Identifier"
              }
            ]
          },
          "valueString": "c0d7ed4f-7d6e-48b4-bac4-3762e6d7b93e"
        },
        {
          "code": {
            "coding": [
              {
                "system": "http://dicom.nema.org/resources/ontology/DCM",
                "code": "112040",
                "display": "Tracking Unique Identifier"
              }
            ]
          },
          "valueString": "1.2.36.1.2001.1005.78.130744395718823098920855384692437378816784"
        },
        {
          "code": {
            "coding": [
              {
                "system": "http://snomed.info/sct",
                "code": "260870009",
                "display": "Priority"
              }
            ]
          },
          "valueInteger": 1
        },
        {
          "code": {
            "coding": [
              {
                "system": "http://snomed.info/sct",
                "code": "734841007",
                "display": "Name"
              }
            ]
          },
          "valueString": "critical"
        },
        {
          "code": {
            "coding": [
              {
                "system": "http://snomed.info/sct",
                "code": "272126005",
                "display": "Order values"
              }
            ]
          },
          "valueInteger": 48
        },
        {
          "code": {
            "coding": [
              {
                "system": "http://snomed.info/sct",
                "code": "261586004",
                "display": "Groups"
              }
            ]
          },
          "valueString": "2/MEDIUM/2"
        },
        {
          "code": {
            "coding": [
              {
                "system": "http://dicom.nema.org/resources/ontology/DCM",
                "code": "121106",
                "display": "Comment"
              }
            ]
          },
          "valueString": "Single area of consolidation or air space / ground glass opacity in the lung. Air bronchogram may be present.  "
        },
        {
          "code": {
            "coding": [
              {
                "system": "http://snomed.info/sct",
                "code": "118589004",
                "display": "Threshold"
              }
            ]
          },
          "valueQuantity": {
            "value": 0.0022451195109924483,
            "unit": "1",
            "system": "http://unitsofmeasure.org",
            "code": "1"
          }
        },
        {
          "code": {
            "coding": [
              {
                "system": "http://snomed.info/sct",
                "code": "386136009",
                "display": "Standard deviation"
              }
            ]
          },
          "valueQuantity": {
            "value": 0.0322827187364571,
            "unit": "1",
            "system": "http://unitsofmeasure.org",
            "code": "1"
          }
        }
      ]
    },
    {
      "resourceType": "Observation",
      "id": "d7bff305-db0a-40c0-8503-43418481d248",
      "status": "final",
      "code": {
        "coding": [
          {
            "system": "https://www.annalise.ai/guides",
            "code": "multifocal_airspace_opacity",
            "display": "Multifocal airspace opacity"
          }
        ],
        "text": "Multifocal airspace opacity"
      },
      "effectiveDateTime": "2024-02-26T14:05:03.616000+00:00",
      "valueCodeableConcept": {
        "coding": [
          {
            "system": "http://radlex.org",
            "code": "RID28472",
            "display": "present"
          }
        ],
        "text": "present"
      },
      "note": [
        {
          "text": "Multifocal airspace opacity is present"
        }
      ],
      "bodySite": {
        "coding": [
          {
            "system": "http://radlex.org",
            "code": "RID1301",
            "display": "lung"
          }
        ]
      },
      "derivedFrom": [
        {
          "reference": "#412cbeb9-6355-4cbb-bc1a-7a36a2db3972"
        }
      ],
      "component": [
        {
          "code": {
            "coding": [
              {
                "system": "http://radlex.org",
                "code": "RID28472",
                "display": "present"
              }
            ]
          },
          "valueString": "present"
        },
        {
          "code": {
            "coding": [
              {
                "system": "http://radlex.org",
                "code": "RID33",
                "display": "probably"
              }
            ]
          },
          "valueQuantity": {
            "value": 41.606923872458225,
            "unit": "percent",
            "system": "http://unitsofmeasure.org"
          }
        },
        {
          "code": {
            "coding": [
              {
                "system": "http://dicom.nema.org/resources/ontology/DCM",
                "code": "110180",
                "display": "Study Instance UID"
              }
            ]
          },
          "valueString": "1.2.826.0.1.3680043.8.498.29787505795955088203375994549087229509"
        },
        {
          "code": {
            "coding": [
              {
                "system": "http://dicom.nema.org/resources/ontology/DCM",
                "code": "112039",
                "display": "Tracking Identifier"
              }
            ]
          },
          "valueString": "e014a2c7-744b-4d36-9c70-de14777b017b"
        },
        {
          "code": {
            "coding": [
              {
                "system": "http://dicom.nema.org/resources/ontology/DCM",
                "code": "112040",
                "display": "Tracking Unique Identifier"
              }
            ]
          },
          "valueString": "1.2.36.1.2001.1005.78.750383205548787512907110490838499829313545"
        },
        {
          "code": {
            "coding": [
              {
                "system": "http://snomed.info/sct",
                "code": "260870009",
                "display": "Priority"
              }
            ]
          },
          "valueInteger": 1
        },
        {
          "code": {
            "coding": [
              {
                "system": "http://snomed.info/sct",
                "code": "734841007",
                "display": "Name"
              }
            ]
          },
          "valueString": "critical"
        },
        {
          "code": {
            "coding": [
              {
                "system": "http://snomed.info/sct",
                "code": "272126005",
                "display": "Order values"
              }
            ]
          },
          "valueInteger": 49
        },
        {
          "code": {
            "coding": [
              {
                "system": "http://snomed.info/sct",
                "code": "261586004",
                "display": "Groups"
              }
            ]
          },
          "valueString": "2/MEDIUM/2"
        },
        {
          "code": {
            "coding": [
              {
                "system": "http://dicom.nema.org/resources/ontology/DCM",
                "code": "121106",
                "display": "Comment"
              }
            ]
          },
          "valueString": "Multiple area of ill defined airspace  / ground glass opacity or consolidation."
        },
        {
          "code": {
            "coding": [
              {
                "system": "http://snomed.info/sct",
                "code": "118589004",
                "display": "Threshold"
              }
            ]
          },
          "valueQuantity": {
            "value": 0.4,
            "unit": "1",
            "system": "http://unitsofmeasure.org",
            "code": "1"
          }
        },
        {
          "code": {
            "coding": [
              {
                "system": "http://snomed.info/sct",
                "code": "386136009",
                "display": "Standard deviation"
              }
            ]
          },
          "valueQuantity": {
            "value": 0.03353309457190203,
            "unit": "1",
            "system": "http://unitsofmeasure.org",
            "code": "1"
          }
        }
      ]
    },
    {
      "resourceType": "Observation",
      "id": "c9c582cd-4717-4ce1-a8b0-10b7e6769f74",
      "status": "final",
      "code": {
        "coding": [
          {
            "system": "https://www.annalise.ai/guides",
            "code": "diffuse_lower_airspace_opacity",
            "display": "Diffuse lower airspace opacity"
          }
        ],
        "text": "Diffuse lower airspace opacity"
      },
      "effectiveDateTime": "2024-02-26T14:05:03.618000+00:00",
      "valueCodeableConcept": {
        "coding": [
          {
            "system": "http://radlex.org",
            "code": "RID28472",
            "display": "present"
          }
        ],
        "text": "present"
      },
      "note": [
        {
          "text": "Diffuse lower airspace opacity is present"
        }
      ],
      "bodySite": {
        "coding": [
          {
            "system": "http://radlex.org",
            "code": "RID1354",
            "display": "lower lung zone"
          }
        ]
      },
      "derivedFrom": [
        {
          "reference": "#412cbeb9-6355-4cbb-bc1a-7a36a2db3972"
        }
      ],
      "component": [
        {
          "code": {
            "coding": [
              {
                "system": "http://snomed.info/sct",
                "code": "24028007",
                "display": "Right lateral"
              }
            ]
          },
          "valueQuantity": {
            "value": 52.28243350982667,
            "unit": "percent",
            "system": "http://unitsofmeasure.org",
            "code": "%"
          }
        },
        {
          "code": {
            "coding": [
              {
                "system": "http://radlex.org",
                "code": "RID28472",
                "display": "present"
              }
            ]
          },
          "valueString": "present"
        },
        {
          "code": {
            "coding": [
              {
                "system": "http://radlex.org",
                "code": "RID33",
                "display": "probably"
              }
            ]
          },
          "valueQuantity": {
            "value": 47.55283093814056,
            "unit": "percent",
            "system": "http://unitsofmeasure.org"
          }
        },
        {
          "code": {
            "coding": [
              {
                "system": "http://dicom.nema.org/resources/ontology/DCM",
                "code": "110180",
                "display": "Study Instance UID"
              }
            ]
          },
          "valueString": "1.2.826.0.1.3680043.8.498.29787505795955088203375994549087229509"
        },
        {
          "code": {
            "coding": [
              {
                "system": "http://dicom.nema.org/resources/ontology/DCM",
                "code": "112039",
                "display": "Tracking Identifier"
              }
            ]
          },
          "valueString": "73ae00a0-ee0b-403c-ae20-dc2e76534b59"
        },
        {
          "code": {
            "coding": [
              {
                "system": "http://dicom.nema.org/resources/ontology/DCM",
                "code": "112040",
                "display": "Tracking Unique Identifier"
              }
            ]
          },
          "valueString": "1.2.36.1.2001.1005.78.651937200701771331352382109910849879929690"
        },
        {
          "code": {
            "coding": [
              {
                "system": "http://snomed.info/sct",
                "code": "260870009",
                "display": "Priority"
              }
            ]
          },
          "valueInteger": 2
        },
        {
          "code": {
            "coding": [
              {
                "system": "http://snomed.info/sct",
                "code": "734841007",
                "display": "Name"
              }
            ]
          },
          "valueString": "urgent"
        },
        {
          "code": {
            "coding": [
              {
                "system": "http://snomed.info/sct",
                "code": "272126005",
                "display": "Order values"
              }
            ]
          },
          "valueInteger": 18
        },
        {
          "code": {
            "coding": [
              {
                "system": "http://snomed.info/sct",
                "code": "261586004",
                "display": "Groups"
              }
            ]
          },
          "valueString": "1/PRIORITY/1"
        },
        {
          "code": {
            "coding": [
              {
                "system": "http://dicom.nema.org/resources/ontology/DCM",
                "code": "121106",
                "display": "Comment"
              }
            ]
          },
          "valueString": "Diffuse ill-defined airspace / ground glass opacity or consolidation in predominantly the lower zones of one or both lungs. Does not include interstitial opacities. This finding may still be predicted if there are upper zone changes as long as the pattern is lower zone predominant."
        },
        {
          "code": {
            "coding": [
              {
                "system": "http://snomed.info/sct",
                "code": "118589004",
                "display": "Threshold"
              }
            ]
          },
          "valueQuantity": {
            "value": 0.000456076609313554,
            "unit": "1",
            "system": "http://unitsofmeasure.org",
            "code": "1"
          }
        },
        {
          "code": {
            "coding": [
              {
                "system": "http://snomed.info/sct",
                "code": "386136009",
                "display": "Standard deviation"
              }
            ]
          },
          "valueQuantity": {
            "value": 0.014810509503401941,
            "unit": "1",
            "system": "http://unitsofmeasure.org",
            "code": "1"
          }
        }
      ]
    },
    {
      "resourceType": "Observation",
      "id": "05fb39c9-b727-4de0-93ec-408f6bc9951c",
      "status": "final",
      "code": {
        "coding": [
          {
            "system": "https://www.annalise.ai/guides",
            "code": "shoulder_fixation",
            "display": "Shoulder fixation"
          }
        ],
        "text": "Shoulder fixation"
      },
      "effectiveDateTime": "2024-02-26T14:05:03.622000+00:00",
      "valueCodeableConcept": {
        "coding": [
          {
            "system": "http://radlex.org",
            "code": "RID28472",
            "display": "present"
          }
        ],
        "text": "present"
      },
      "note": [
        {
          "text": "Shoulder fixation is present"
        }
      ],
      "bodySite": {
        "coding": [
          {
            "system": "http://radlex.org",
            "code": "RID39518",
            "display": "shoulder"
          }
        ]
      },
      "derivedFrom": [
        {
          "reference": "#412cbeb9-6355-4cbb-bc1a-7a36a2db3972"
        }
      ],
      "component": [
        {
          "code": {
            "coding": [
              {
                "system": "http://snomed.info/sct",
                "code": "7771000",
                "display": "Left lateral"
              }
            ]
          },
          "valueQuantity": {
            "value": 39.19804334640503,
            "unit": "percent",
            "system": "http://unitsofmeasure.org",
            "code": "%"
          }
        },
        {
          "code": {
            "coding": [
              {
                "system": "http://radlex.org",
                "code": "RID28472",
                "display": "present"
              }
            ]
          },
          "valueString": "present"
        },
        {
          "code": {
            "coding": [
              {
                "system": "http://radlex.org",
                "code": "RID33",
                "display": "probably"
              }
            ]
          },
          "valueQuantity": {
            "value": 64.88035056088962,
            "unit": "percent",
            "system": "http://unitsofmeasure.org"
          }
        },
        {
          "code": {
            "coding": [
              {
                "system": "http://dicom.nema.org/resources/ontology/DCM",
                "code": "110180",
                "display": "Study Instance UID"
              }
            ]
          },
          "valueString": "1.2.826.0.1.3680043.8.498.29787505795955088203375994549087229509"
        },
        {
          "code": {
            "coding": [
              {
                "system": "http://dicom.nema.org/resources/ontology/DCM",
                "code": "112039",
                "display": "Tracking Identifier"
              }
            ]
          },
          "valueString": "2d987887-282e-4c77-8a8b-0f81afd66b45"
        },
        {
          "code": {
            "coding": [
              {
                "system": "http://dicom.nema.org/resources/ontology/DCM",
                "code": "112040",
                "display": "Tracking Unique Identifier"
              }
            ]
          },
          "valueString": "1.2.36.1.2001.1005.78.119207625071535200546282033272802195519807"
        },
        {
          "code": {
            "coding": [
              {
                "system": "http://snomed.info/sct",
                "code": "260870009",
                "display": "Priority"
              }
            ]
          },
          "valueInteger": 2
        },
        {
          "code": {
            "coding": [
              {
                "system": "http://snomed.info/sct",
                "code": "734841007",
                "display": "Name"
              }
            ]
          },
          "valueString": "urgent"
        },
        {
          "code": {
            "coding": [
              {
                "system": "http://snomed.info/sct",
                "code": "272126005",
                "display": "Order values"
              }
            ]
          },
          "valueInteger": 21
        },
        {
          "code": {
            "coding": [
              {
                "system": "http://snomed.info/sct",
                "code": "261586004",
                "display": "Groups"
              }
            ]
          },
          "valueString": "3/TECHNICAL/3"
        },
        {
          "code": {
            "coding": [
              {
                "system": "http://dicom.nema.org/resources/ontology/DCM",
                "code": "121106",
                "display": "Comment"
              }
            ]
          },
          "valueString": "Internal fixation of humerus or scapula fractures. May not be predicted if the fracture has been fixated."
        },
        {
          "code": {
            "coding": [
              {
                "system": "http://snomed.info/sct",
                "code": "118589004",
                "display": "Threshold"
              }
            ]
          },
          "valueQuantity": {
            "value": 0.5,
            "unit": "1",
            "system": "http://unitsofmeasure.org",
            "code": "1"
          }
        },
        {
          "code": {
            "coding": [
              {
                "system": "http://snomed.info/sct",
                "code": "386136009",
                "display": "Standard deviation"
              }
            ]
          },
          "valueQuantity": {
            "value": 0.03822603404976188,
            "unit": "1",
            "system": "http://unitsofmeasure.org",
            "code": "1"
          }
        }
      ]
    },
    {
      "resourceType": "Observation",
      "id": "b1fbbb86-90b3-4587-9dcb-616b315e1486",
      "status": "final",
      "code": {
        "coding": [
          {
            "system": "https://www.annalise.ai/guides",
            "code": "diaphragmatic_elevation",
            "display": "Diaphragmatic elevation"
          }
        ],
        "text": "Diaphragmatic elevation"
      },
      "effectiveDateTime": "2024-02-26T14:05:03.632000+00:00",
      "valueCodeableConcept": {
        "coding": [
          {
            "system": "http://radlex.org",
            "code": "RID28472",
            "display": "present"
          }
        ],
        "text": "present"
      },
      "note": [
        {
          "text": "Diaphragmatic elevation is present"
        }
      ],
      "bodySite": {
        "coding": [
          {
            "system": "http://radlex.org",
            "code": "RID1524",
            "display": "diaphragm"
          }
        ]
      },
      "derivedFrom": [
        {
          "reference": "#412cbeb9-6355-4cbb-bc1a-7a36a2db3972"
        }
      ],
      "component": [
        {
          "code": {
            "coding": [
              {
                "system": "http://radlex.org",
                "code": "RID28472",
                "display": "present"
              }
            ]
          },
          "valueString": "present"
        },
        {
          "code": {
            "coding": [
              {
                "system": "http://radlex.org",
                "code": "RID33",
                "display": "probably"
              }
            ]
          },
          "valueQuantity": {
            "value": 56.48446762930529,
            "unit": "percent",
            "system": "http://unitsofmeasure.org"
          }
        },
        {
          "code": {
            "coding": [
              {
                "system": "http://dicom.nema.org/resources/ontology/DCM",
                "code": "110180",
                "display": "Study Instance UID"
              }
            ]
          },
          "valueString": "1.2.826.0.1.3680043.8.498.29787505795955088203375994549087229509"
        },
        {
          "code": {
            "coding": [
              {
                "system": "http://dicom.nema.org/resources/ontology/DCM",
                "code": "112039",
                "display": "Tracking Identifier"
              }
            ]
          },
          "valueString": "40f933d6-a40a-4cc0-b30d-1f8a5a22a402"
        },
        {
          "code": {
            "coding": [
              {
                "system": "http://dicom.nema.org/resources/ontology/DCM",
                "code": "112040",
                "display": "Tracking Unique Identifier"
              }
            ]
          },
          "valueString": "1.2.36.1.2001.1005.78.457734912912934050968974958809152823055817"
        },
        {
          "code": {
            "coding": [
              {
                "system": "http://snomed.info/sct",
                "code": "260870009",
                "display": "Priority"
              }
            ]
          },
          "valueInteger": 2
        },
        {
          "code": {
            "coding": [
              {
                "system": "http://snomed.info/sct",
                "code": "734841007",
                "display": "Name"
              }
            ]
          },
          "valueString": "urgent"
        },
        {
          "code": {
            "coding": [
              {
                "system": "http://snomed.info/sct",
                "code": "272126005",
                "display": "Order values"
              }
            ]
          },
          "valueInteger": 88
        },
        {
          "code": {
            "coding": [
              {
                "system": "http://snomed.info/sct",
                "code": "261586004",
                "display": "Groups"
              }
            ]
          },
          "valueString": "3/TECHNICAL/3"
        },
        {
          "code": {
            "coding": [
              {
                "system": "http://dicom.nema.org/resources/ontology/DCM",
                "code": "121106",
                "display": "Comment"
              }
            ]
          },
          "valueString": "Left hemidiaphragm is higher than the right or if the right is more than 3cm higher than the left.\nThis finding should only apply to the inspiratory view, not the lateral or expiratory views."
        },
        {
          "code": {
            "coding": [
              {
                "system": "http://snomed.info/sct",
                "code": "118589004",
                "display": "Threshold"
              }
            ]
          },
          "valueQuantity": {
            "value": 0.4,
            "unit": "1",
            "system": "http://unitsofmeasure.org",
            "code": "1"
          }
        },
        {
          "code": {
            "coding": [
              {
                "system": "http://snomed.info/sct",
                "code": "386136009",
                "display": "Standard deviation"
              }
            ]
          },
          "valueQuantity": {
            "value": 0.03322844296249158,
            "unit": "1",
            "system": "http://unitsofmeasure.org",
            "code": "1"
          }
        }
      ]
    },
    {
      "resourceType": "Observation",
      "id": "392379e7-60cb-4609-9c1b-04049928b82d",
      "status": "final",
      "code": {
        "coding": [
          {
            "system": "https://www.annalise.ai/guides",
            "code": "interstitial_thickening_lower",
            "display": "Basal interstitial thickening"
          }
        ],
        "text": "Basal interstitial thickening"
      },
      "effectiveDateTime": "2024-02-26T14:05:03.641000+00:00",
      "valueCodeableConcept": {
        "coding": [
          {
            "system": "http://radlex.org",
            "code": "RID28472",
            "display": "present"
          }
        ],
        "text": "present"
      },
      "note": [
        {
          "text": "Basal interstitial thickening is present"
        }
      ],
      "bodySite": {
        "coding": [
          {
            "system": "http://radlex.org",
            "code": "RID28512",
            "display": "interstitium"
          }
        ]
      },
      "derivedFrom": [
        {
          "reference": "#412cbeb9-6355-4cbb-bc1a-7a36a2db3972"
        }
      ],
      "component": [
        {
          "code": {
            "coding": [
              {
                "system": "http://snomed.info/sct",
                "code": "51440002",
                "display": "Bilateral"
              }
            ]
          },
          "valueQuantity": {
            "value": 38.71145963668823,
            "unit": "percent",
            "system": "http://unitsofmeasure.org",
            "code": "%"
          }
        },
        {
          "code": {
            "coding": [
              {
                "system": "http://radlex.org",
                "code": "RID28472",
                "display": "present"
              }
            ]
          },
          "valueString": "present"
        },
        {
          "code": {
            "coding": [
              {
                "system": "http://radlex.org",
                "code": "RID33",
                "display": "probably"
              }
            ]
          },
          "valueQuantity": {
            "value": 42.83667171277027,
            "unit": "percent",
            "system": "http://unitsofmeasure.org"
          }
        },
        {
          "code": {
            "coding": [
              {
                "system": "http://dicom.nema.org/resources/ontology/DCM",
                "code": "110180",
                "display": "Study Instance UID"
              }
            ]
          },
          "valueString": "1.2.826.0.1.3680043.8.498.29787505795955088203375994549087229509"
        },
        {
          "code": {
            "coding": [
              {
                "system": "http://dicom.nema.org/resources/ontology/DCM",
                "code": "112039",
                "display": "Tracking Identifier"
              }
            ]
          },
          "valueString": "99a7ce02-afa4-474f-a6ab-cfdaa496272a"
        },
        {
          "code": {
            "coding": [
              {
                "system": "http://dicom.nema.org/resources/ontology/DCM",
                "code": "112040",
                "display": "Tracking Unique Identifier"
              }
            ]
          },
          "valueString": "1.2.36.1.2001.1005.78.445958604211737660928787538761934179428774"
        },
        {
          "code": {
            "coding": [
              {
                "system": "http://snomed.info/sct",
                "code": "260870009",
                "display": "Priority"
              }
            ]
          },
          "valueInteger": 1
        },
        {
          "code": {
            "coding": [
              {
                "system": "http://snomed.info/sct",
                "code": "734841007",
                "display": "Name"
              }
            ]
          },
          "valueString": "critical"
        },
        {
          "code": {
            "coding": [
              {
                "system": "http://snomed.info/sct",
                "code": "272126005",
                "display": "Order values"
              }
            ]
          },
          "valueInteger": 55
        },
        {
          "code": {
            "coding": [
              {
                "system": "http://snomed.info/sct",
                "code": "261586004",
                "display": "Groups"
              }
            ]
          },
          "valueString": "2/MEDIUM/2"
        },
        {
          "code": {
            "coding": [
              {
                "system": "http://dicom.nema.org/resources/ontology/DCM",
                "code": "121106",
                "display": "Comment"
              }
            ]
          },
          "valueString": "Opacities within pulmonary lobules in a linear / branching pattern affecting predominantly lower zones of one or both lungs. This also includes thickened chronic fibrotic changes from lung scarring. This finding may still be predicted if there are upper zone changes as long as the pattern is lower zone predominant."
        },
        {
          "code": {
            "coding": [
              {
                "system": "http://snomed.info/sct",
                "code": "118589004",
                "display": "Threshold"
              }
            ]
          },
          "valueQuantity": {
            "value": 0.4,
            "unit": "1",
            "system": "http://unitsofmeasure.org",
            "code": "1"
          }
        },
        {
          "code": {
            "coding": [
              {
                "system": "http://snomed.info/sct",
                "code": "386136009",
                "display": "Standard deviation"
              }
            ]
          },
          "valueQuantity": {
            "value": 0.04111576088677247,
            "unit": "1",
            "system": "http://unitsofmeasure.org",
            "code": "1"
          }
        }
      ]
    },
    {
      "resourceType": "Observation",
      "id": "775eb312-392e-43d0-a2be-51ef8d4613b9",
      "status": "final",
      "code": {
        "coding": [
          {
            "system": "https://www.annalise.ai/guides",
            "code": "interstitial_thickening_volloss_lower",
            "display": "Lower zone fibrotic volume loss"
          }
        ],
        "text": "Lower zone fibrotic volume loss"
      },
      "effectiveDateTime": "2024-02-26T14:05:03.643000+00:00",
      "valueCodeableConcept": {
        "coding": [
          {
            "system": "http://radlex.org",
            "code": "RID28472",
            "display": "present"
          }
        ],
        "text": "present"
      },
      "note": [
        {
          "text": "Lower zone fibrotic volume loss is present"
        }
      ],
      "bodySite": {
        "coding": [
          {
            "system": "http://radlex.org",
            "code": "RID28512",
            "display": "interstitium"
          }
        ]
      },
      "derivedFrom": [
        {
          "reference": "#412cbeb9-6355-4cbb-bc1a-7a36a2db3972"
        }
      ],
      "component": [
        {
          "code": {
            "coding": [
              {
                "system": "http://snomed.info/sct",
                "code": "24028007",
                "display": "Right lateral"
              }
            ]
          },
          "valueQuantity": {
            "value": 48.24970006942749,
            "unit": "percent",
            "system": "http://unitsofmeasure.org",
            "code": "%"
          }
        },
        {
          "code": {
            "coding": [
              {
                "system": "http://radlex.org",
                "code": "RID28472",
                "display": "present"
              }
            ]
          },
          "valueString": "present"
        },
        {
          "code": {
            "coding": [
              {
                "system": "http://radlex.org",
                "code": "RID33",
                "display": "probably"
              }
            ]
          },
          "valueQuantity": {
            "value": 50.623123213696374,
            "unit": "percent",
            "system": "http://unitsofmeasure.org"
          }
        },
        {
          "code": {
            "coding": [
              {
                "system": "http://dicom.nema.org/resources/ontology/DCM",
                "code": "110180",
                "display": "Study Instance UID"
              }
            ]
          },
          "valueString": "1.2.826.0.1.3680043.8.498.29787505795955088203375994549087229509"
        },
        {
          "code": {
            "coding": [
              {
                "system": "http://dicom.nema.org/resources/ontology/DCM",
                "code": "112039",
                "display": "Tracking Identifier"
              }
            ]
          },
          "valueString": "0539102b-9385-483b-80ef-55f01968ca43"
        },
        {
          "code": {
            "coding": [
              {
                "system": "http://dicom.nema.org/resources/ontology/DCM",
                "code": "112040",
                "display": "Tracking Unique Identifier"
              }
            ]
          },
          "valueString": "1.2.36.1.2001.1005.78.225620701447408865923880080207620332856087"
        },
        {
          "code": {
            "coding": [
              {
                "system": "http://snomed.info/sct",
                "code": "260870009",
                "display": "Priority"
              }
            ]
          },
          "valueInteger": 1
        },
        {
          "code": {
            "coding": [
              {
                "system": "http://snomed.info/sct",
                "code": "734841007",
                "display": "Name"
              }
            ]
          },
          "valueString": "critical"
        },
        {
          "code": {
            "coding": [
              {
                "system": "http://snomed.info/sct",
                "code": "272126005",
                "display": "Order values"
              }
            ]
          },
          "valueInteger": 58
        },
        {
          "code": {
            "coding": [
              {
                "system": "http://snomed.info/sct",
                "code": "261586004",
                "display": "Groups"
              }
            ]
          },
          "valueString": "2/MEDIUM/2"
        },
        {
          "code": {
            "coding": [
              {
                "system": "http://dicom.nema.org/resources/ontology/DCM",
                "code": "121106",
                "display": "Comment"
              }
            ]
          },
          "valueString": "Opacities within pulmonary lobules in a linear / branching pattern affecting one or both lungs. Lower zone predominant. Associated with volume loss (diaphragmatic elevation).  This also includes thickened chronic fibrotic changes from lung scarring. This finding may still be predicted if there are upper zone changes as long as the pattern is lower zone predominant."
        },
        {
          "code": {
            "coding": [
              {
                "system": "http://snomed.info/sct",
                "code": "118589004",
                "display": "Threshold"
              }
            ]
          },
          "valueQuantity": {
            "value": 0.4,
            "unit": "1",
            "system": "http://unitsofmeasure.org",
            "code": "1"
          }
        },
        {
          "code": {
            "coding": [
              {
                "system": "http://snomed.info/sct",
                "code": "386136009",
                "display": "Standard deviation"
              }
            ]
          },
          "valueQuantity": {
            "value": 0.06404915462530966,
            "unit": "1",
            "system": "http://unitsofmeasure.org",
            "code": "1"
          }
        }
      ]
    },
    {
      "resourceType": "Observation",
      "id": "6f00ff10-033d-41a2-8b13-072a6466ee3b",
      "status": "final",
      "code": {
        "coding": [
          {
            "system": "https://www.annalise.ai/guides",
            "code": "kyphosis",
            "display": "Kyphosis"
          }
        ],
        "text": "Kyphosis"
      },
      "effectiveDateTime": "2024-02-26T14:05:03.645000+00:00",
      "valueCodeableConcept": {
        "coding": [
          {
            "system": "http://radlex.org",
            "code": "RID28472",
            "display": "present"
          }
        ],
        "text": "present"
      },
      "note": [
        {
          "text": "Kyphosis is present"
        }
      ],
      "bodySite": {
        "coding": [
          {
            "system": "http://radlex.org",
            "code": "RID34572",
            "display": "thoracic vertebral column"
          }
        ]
      },
      "derivedFrom": [
        {
          "reference": "#412cbeb9-6355-4cbb-bc1a-7a36a2db3972"
        }
      ],
      "component": [
        {
          "code": {
            "coding": [
              {
                "system": "http://radlex.org",
                "code": "RID28472",
                "display": "present"
              }
            ]
          },
          "valueString": "present"
        },
        {
          "code": {
            "coding": [
              {
                "system": "http://radlex.org",
                "code": "RID33",
                "display": "probably"
              }
            ]
          },
          "valueQuantity": {
            "value": 78.5846606001806,
            "unit": "percent",
            "system": "http://unitsofmeasure.org"
          }
        },
        {
          "code": {
            "coding": [
              {
                "system": "http://dicom.nema.org/resources/ontology/DCM",
                "code": "110180",
                "display": "Study Instance UID"
              }
            ]
          },
          "valueString": "1.2.826.0.1.3680043.8.498.29787505795955088203375994549087229509"
        },
        {
          "code": {
            "coding": [
              {
                "system": "http://dicom.nema.org/resources/ontology/DCM",
                "code": "112039",
                "display": "Tracking Identifier"
              }
            ]
          },
          "valueString": "c192b1d5-c335-46dc-b97b-6ac0e1a7e3a3"
        },
        {
          "code": {
            "coding": [
              {
                "system": "http://dicom.nema.org/resources/ontology/DCM",
                "code": "112040",
                "display": "Tracking Unique Identifier"
              }
            ]
          },
          "valueString": "1.2.36.1.2001.1005.78.118750287231736272503596203707052710570145"
        },
        {
          "code": {
            "coding": [
              {
                "system": "http://snomed.info/sct",
                "code": "260870009",
                "display": "Priority"
              }
            ]
          },
          "valueInteger": 2
        },
        {
          "code": {
            "coding": [
              {
                "system": "http://snomed.info/sct",
                "code": "734841007",
                "display": "Name"
              }
            ]
          },
          "valueString": "urgent"
        },
        {
          "code": {
            "coding": [
              {
                "system": "http://snomed.info/sct",
                "code": "272126005",
                "display": "Order values"
              }
            ]
          },
          "valueInteger": 114
        },
        {
          "code": {
            "coding": [
              {
                "system": "http://snomed.info/sct",
                "code": "261586004",
                "display": "Groups"
              }
            ]
          },
          "valueString": "3/TECHNICAL/3"
        },
        {
          "code": {
            "coding": [
              {
                "system": "http://dicom.nema.org/resources/ontology/DCM",
                "code": "121106",
                "display": "Comment"
              }
            ]
          },
          "valueString": "Increased kyphosis of the thoracic spine with Cobb angle greater than 45 degrees on lateral view. Usually predicted off the lateral view."
        },
        {
          "code": {
            "coding": [
              {
                "system": "http://snomed.info/sct",
                "code": "118589004",
                "display": "Threshold"
              }
            ]
          },
          "valueQuantity": {
            "value": 0.5,
            "unit": "1",
            "system": "http://unitsofmeasure.org",
            "code": "1"
          }
        },
        {
          "code": {
            "coding": [
              {
                "system": "http://snomed.info/sct",
                "code": "386136009",
                "display": "Standard deviation"
              }
            ]
          },
          "valueQuantity": {
            "value": 0.04272372010114222,
            "unit": "1",
            "system": "http://unitsofmeasure.org",
            "code": "1"
          }
        }
      ]
    },
    {
      "resourceType": "Observation",
      "id": "1ba1f53c-41d3-4858-9ef4-e798a01f6204",
      "status": "final",
      "code": {
        "coding": [
          {
            "system": "https://www.annalise.ai/guides",
            "code": "lung_resection_volloss",
            "display": "Post resection volume loss"
          }
        ],
        "text": "Post resection volume loss"
      },
      "effectiveDateTime": "2024-02-26T14:05:03.648000+00:00",
      "valueCodeableConcept": {
        "coding": [
          {
            "system": "http://radlex.org",
            "code": "RID28472",
            "display": "present"
          }
        ],
        "text": "present"
      },
      "note": [
        {
          "text": "Post resection volume loss is present"
        }
      ],
      "bodySite": {
        "coding": [
          {
            "system": "http://radlex.org",
            "code": "RID1301",
            "display": "lung"
          }
        ]
      },
      "derivedFrom": [
        {
          "reference": "#412cbeb9-6355-4cbb-bc1a-7a36a2db3972"
        }
      ],
      "component": [
        {
          "code": {
            "coding": [
              {
                "system": "http://snomed.info/sct",
                "code": "24028007",
                "display": "Right lateral"
              }
            ]
          },
          "valueQuantity": {
            "value": 56.73251390457153,
            "unit": "percent",
            "system": "http://unitsofmeasure.org",
            "code": "%"
          }
        },
        {
          "code": {
            "coding": [
              {
                "system": "http://radlex.org",
                "code": "RID28472",
                "display": "present"
              }
            ]
          },
          "valueString": "present"
        },
        {
          "code": {
            "coding": [
              {
                "system": "http://radlex.org",
                "code": "RID33",
                "display": "probably"
              }
            ]
          },
          "valueQuantity": {
            "value": 79.72996015453649,
            "unit": "percent",
            "system": "http://unitsofmeasure.org"
          }
        },
        {
          "code": {
            "coding": [
              {
                "system": "http://dicom.nema.org/resources/ontology/DCM",
                "code": "110180",
                "display": "Study Instance UID"
              }
            ]
          },
          "valueString": "1.2.826.0.1.3680043.8.498.29787505795955088203375994549087229509"
        },
        {
          "code": {
            "coding": [
              {
                "system": "http://dicom.nema.org/resources/ontology/DCM",
                "code": "112039",
                "display": "Tracking Identifier"
              }
            ]
          },
          "valueString": "6a60ebdb-bc4a-4267-aff1-8d536315ece3"
        },
        {
          "code": {
            "coding": [
              {
                "system": "http://dicom.nema.org/resources/ontology/DCM",
                "code": "112040",
                "display": "Tracking Unique Identifier"
              }
            ]
          },
          "valueString": "1.2.36.1.2001.1005.78.429401771443987961887224983739382802553616"
        },
        {
          "code": {
            "coding": [
              {
                "system": "http://snomed.info/sct",
                "code": "260870009",
                "display": "Priority"
              }
            ]
          },
          "valueInteger": 2
        },
        {
          "code": {
            "coding": [
              {
                "system": "http://snomed.info/sct",
                "code": "734841007",
                "display": "Name"
              }
            ]
          },
          "valueString": "urgent"
        },
        {
          "code": {
            "coding": [
              {
                "system": "http://snomed.info/sct",
                "code": "272126005",
                "display": "Order values"
              }
            ]
          },
          "valueInteger": 67
        },
        {
          "code": {
            "coding": [
              {
                "system": "http://snomed.info/sct",
                "code": "261586004",
                "display": "Groups"
              }
            ]
          },
          "valueString": "3/TECHNICAL/3"
        },
        {
          "code": {
            "coding": [
              {
                "system": "http://dicom.nema.org/resources/ontology/DCM",
                "code": "121106",
                "display": "Comment"
              }
            ]
          },
          "valueString": "Post resection volume loss Volume loss due to resection of lung e.g. pneumonectomy, lobectomy or segmentectomy, usually with staples / clips visible"
        },
        {
          "code": {
            "coding": [
              {
                "system": "http://snomed.info/sct",
                "code": "118589004",
                "display": "Threshold"
              }
            ]
          },
          "valueQuantity": {
            "value": 0.4,
            "unit": "1",
            "system": "http://unitsofmeasure.org",
            "code": "1"
          }
        },
        {
          "code": {
            "coding": [
              {
                "system": "http://snomed.info/sct",
                "code": "386136009",
                "display": "Standard deviation"
              }
            ]
          },
          "valueQuantity": {
            "value": 0.019819338915837287,
            "unit": "1",
            "system": "http://unitsofmeasure.org",
            "code": "1"
          }
        }
      ]
    },
    {
      "resourceType": "Observation",
      "id": "43e71b5a-13fb-415d-8eeb-d9b1a986caa1",
      "status": "final",
      "code": {
        "coding": [
          {
            "system": "https://www.annalise.ai/guides",
            "code": "lung_sutures",
            "display": "Lung sutures"
          }
        ],
        "text": "Lung sutures"
      },
      "effectiveDateTime": "2024-02-26T14:05:03.649000+00:00",
      "valueCodeableConcept": {
        "coding": [
          {
            "system": "http://radlex.org",
            "code": "RID28472",
            "display": "present"
          }
        ],
        "text": "present"
      },
      "note": [
        {
          "text": "Lung sutures is present"
        }
      ],
      "bodySite": {
        "coding": [
          {
            "system": "http://radlex.org",
            "code": "RID1301",
            "display": "lung"
          }
        ]
      },
      "derivedFrom": [
        {
          "reference": "#412cbeb9-6355-4cbb-bc1a-7a36a2db3972"
        }
      ],
      "component": [
        {
          "code": {
            "coding": [
              {
                "system": "http://radlex.org",
                "code": "RID28472",
                "display": "present"
              }
            ]
          },
          "valueString": "present"
        },
        {
          "code": {
            "coding": [
              {
                "system": "http://radlex.org",
                "code": "RID33",
                "display": "probably"
              }
            ]
          },
          "valueQuantity": {
            "value": 77.86867947701896,
            "unit": "percent",
            "system": "http://unitsofmeasure.org"
          }
        },
        {
          "code": {
            "coding": [
              {
                "system": "http://dicom.nema.org/resources/ontology/DCM",
                "code": "110180",
                "display": "Study Instance UID"
              }
            ]
          },
          "valueString": "1.2.826.0.1.3680043.8.498.29787505795955088203375994549087229509"
        },
        {
          "code": {
            "coding": [
              {
                "system": "http://dicom.nema.org/resources/ontology/DCM",
                "code": "112039",
                "display": "Tracking Identifier"
              }
            ]
          },
          "valueString": "369d23eb-5612-44c3-9cac-5485b6b786d9"
        },
        {
          "code": {
            "coding": [
              {
                "system": "http://dicom.nema.org/resources/ontology/DCM",
                "code": "112040",
                "display": "Tracking Unique Identifier"
              }
            ]
          },
          "valueString": "1.2.36.1.2001.1005.78.303997889915509344010454208149058680610561"
        },
        {
          "code": {
            "coding": [
              {
                "system": "http://snomed.info/sct",
                "code": "260870009",
                "display": "Priority"
              }
            ]
          },
          "valueInteger": 2
        },
        {
          "code": {
            "coding": [
              {
                "system": "http://snomed.info/sct",
                "code": "734841007",
                "display": "Name"
              }
            ]
          },
          "valueString": "urgent"
        },
        {
          "code": {
            "coding": [
              {
                "system": "http://snomed.info/sct",
                "code": "272126005",
                "display": "Order values"
              }
            ]
          },
          "valueInteger": 30
        },
        {
          "code": {
            "coding": [
              {
                "system": "http://snomed.info/sct",
                "code": "261586004",
                "display": "Groups"
              }
            ]
          },
          "valueString": "3/TECHNICAL/3"
        },
        {
          "code": {
            "coding": [
              {
                "system": "http://dicom.nema.org/resources/ontology/DCM",
                "code": "121106",
                "display": "Comment"
              }
            ]
          },
          "valueString": "Suture material within then lung parenchyma which is typically post lung resection.  "
        },
        {
          "code": {
            "coding": [
              {
                "system": "http://snomed.info/sct",
                "code": "118589004",
                "display": "Threshold"
              }
            ]
          },
          "valueQuantity": {
            "value": 0.5,
            "unit": "1",
            "system": "http://unitsofmeasure.org",
            "code": "1"
          }
        },
        {
          "code": {
            "coding": [
              {
                "system": "http://snomed.info/sct",
                "code": "386136009",
                "display": "Standard deviation"
              }
            ]
          },
          "valueQuantity": {
            "value": 0.0205985598461223,
            "unit": "1",
            "system": "http://unitsofmeasure.org",
            "code": "1"
          }
        }
      ]
    },
    {
      "resourceType": "Observation",
      "id": "e7212a95-03e6-44f1-b131-079174f7ec91",
      "status": "final",
      "code": {
        "coding": [
          {
            "system": "https://www.annalise.ai/guides",
            "code": "mediastinal_clips",
            "display": "Mediastinal clips"
          }
        ],
        "text": "Mediastinal clips"
      },
      "effectiveDateTime": "2024-02-26T14:05:03.653000+00:00",
      "valueCodeableConcept": {
        "coding": [
          {
            "system": "http://radlex.org",
            "code": "RID28472",
            "display": "present"
          }
        ],
        "text": "present"
      },
      "note": [
        {
          "text": "Mediastinal clips is present"
        }
      ],
      "bodySite": {
        "coding": [
          {
            "system": "http://radlex.org",
            "code": "RID1384",
            "display": "mediastinum"
          }
        ]
      },
      "derivedFrom": [
        {
          "reference": "#412cbeb9-6355-4cbb-bc1a-7a36a2db3972"
        }
      ],
      "component": [
        {
          "code": {
            "coding": [
              {
                "system": "http://radlex.org",
                "code": "RID28472",
                "display": "present"
              }
            ]
          },
          "valueString": "present"
        },
        {
          "code": {
            "coding": [
              {
                "system": "http://radlex.org",
                "code": "RID33",
                "display": "probably"
              }
            ]
          },
          "valueQuantity": {
            "value": 70.21385523141494,
            "unit": "percent",
            "system": "http://unitsofmeasure.org"
          }
        },
        {
          "code": {
            "coding": [
              {
                "system": "http://dicom.nema.org/resources/ontology/DCM",
                "code": "110180",
                "display": "Study Instance UID"
              }
            ]
          },
          "valueString": "1.2.826.0.1.3680043.8.498.29787505795955088203375994549087229509"
        },
        {
          "code": {
            "coding": [
              {
                "system": "http://dicom.nema.org/resources/ontology/DCM",
                "code": "112039",
                "display": "Tracking Identifier"
              }
            ]
          },
          "valueString": "45bcfdb3-6752-4e36-81fc-c7800e288e26"
        },
        {
          "code": {
            "coding": [
              {
                "system": "http://dicom.nema.org/resources/ontology/DCM",
                "code": "112040",
                "display": "Tracking Unique Identifier"
              }
            ]
          },
          "valueString": "1.2.36.1.2001.1005.78.112291620841082806034420257835597095837330"
        },
        {
          "code": {
            "coding": [
              {
                "system": "http://snomed.info/sct",
                "code": "260870009",
                "display": "Priority"
              }
            ]
          },
          "valueInteger": 2
        },
        {
          "code": {
            "coding": [
              {
                "system": "http://snomed.info/sct",
                "code": "734841007",
                "display": "Name"
              }
            ]
          },
          "valueString": "urgent"
        },
        {
          "code": {
            "coding": [
              {
                "system": "http://snomed.info/sct",
                "code": "272126005",
                "display": "Order values"
              }
            ]
          },
          "valueInteger": 26
        },
        {
          "code": {
            "coding": [
              {
                "system": "http://snomed.info/sct",
                "code": "261586004",
                "display": "Groups"
              }
            ]
          },
          "valueString": "3/TECHNICAL/3"
        },
        {
          "code": {
            "coding": [
              {
                "system": "http://dicom.nema.org/resources/ontology/DCM",
                "code": "121106",
                "display": "Comment"
              }
            ]
          },
          "valueString": "Surgical clips in the mediastinum or hilum. Typically small clips from coronary artery bypass grafts. Hilar clips from lung surgery also fall under this category. "
        },
        {
          "code": {
            "coding": [
              {
                "system": "http://snomed.info/sct",
                "code": "118589004",
                "display": "Threshold"
              }
            ]
          },
          "valueQuantity": {
            "value": 0.4,
            "unit": "1",
            "system": "http://unitsofmeasure.org",
            "code": "1"
          }
        },
        {
          "code": {
            "coding": [
              {
                "system": "http://snomed.info/sct",
                "code": "386136009",
                "display": "Standard deviation"
              }
            ]
          },
          "valueQuantity": {
            "value": 0.033984748514453204,
            "unit": "1",
            "system": "http://unitsofmeasure.org",
            "code": "1"
          }
        }
      ]
    },
    {
      "resourceType": "Observation",
      "id": "0252bf8c-ac8c-4e64-a899-c9ff2f7f146e",
      "status": "final",
      "code": {
        "coding": [
          {
            "system": "https://www.annalise.ai/guides",
            "code": "osteopaenia",
            "display": "Osteopaenia"
          }
        ],
        "text": "Osteopaenia"
      },
      "effectiveDateTime": "2024-02-26T14:05:03.656000+00:00",
      "valueCodeableConcept": {
        "coding": [
          {
            "system": "http://radlex.org",
            "code": "RID28472",
            "display": "present"
          }
        ],
        "text": "present"
      },
      "note": [
        {
          "text": "Osteopaenia is present"
        }
      ],
      "bodySite": {
        "coding": [
          {
            "system": "http://radlex.org",
            "code": "RID29155",
            "display": "cervical vertebra"
          }
        ]
      },
      "derivedFrom": [
        {
          "reference": "#412cbeb9-6355-4cbb-bc1a-7a36a2db3972"
        }
      ],
      "component": [
        {
          "code": {
            "coding": [
              {
                "system": "http://radlex.org",
                "code": "RID28472",
                "display": "present"
              }
            ]
          },
          "valueString": "present"
        },
        {
          "code": {
            "coding": [
              {
                "system": "http://radlex.org",
                "code": "RID33",
                "display": "probably"
              }
            ]
          },
          "valueQuantity": {
            "value": 64.35050975693862,
            "unit": "percent",
            "system": "http://unitsofmeasure.org"
          }
        },
        {
          "code": {
            "coding": [
              {
                "system": "http://dicom.nema.org/resources/ontology/DCM",
                "code": "110180",
                "display": "Study Instance UID"
              }
            ]
          },
          "valueString": "1.2.826.0.1.3680043.8.498.29787505795955088203375994549087229509"
        },
        {
          "code": {
            "coding": [
              {
                "system": "http://dicom.nema.org/resources/ontology/DCM",
                "code": "112039",
                "display": "Tracking Identifier"
              }
            ]
          },
          "valueString": "3a6787f7-4246-407c-8baa-5880cf1fbbbe"
        },
        {
          "code": {
            "coding": [
              {
                "system": "http://dicom.nema.org/resources/ontology/DCM",
                "code": "112040",
                "display": "Tracking Unique Identifier"
              }
            ]
          },
          "valueString": "1.2.36.1.2001.1005.78.423270236337386145296218817266507604899045"
        },
        {
          "code": {
            "coding": [
              {
                "system": "http://snomed.info/sct",
                "code": "260870009",
                "display": "Priority"
              }
            ]
          },
          "valueInteger": 2
        },
        {
          "code": {
            "coding": [
              {
                "system": "http://snomed.info/sct",
                "code": "734841007",
                "display": "Name"
              }
            ]
          },
          "valueString": "urgent"
        },
        {
          "code": {
            "coding": [
              {
                "system": "http://snomed.info/sct",
                "code": "272126005",
                "display": "Order values"
              }
            ]
          },
          "valueInteger": 119
        },
        {
          "code": {
            "coding": [
              {
                "system": "http://snomed.info/sct",
                "code": "261586004",
                "display": "Groups"
              }
            ]
          },
          "valueString": "3/TECHNICAL/3"
        },
        {
          "code": {
            "coding": [
              {
                "system": "http://dicom.nema.org/resources/ontology/DCM",
                "code": "121106",
                "display": "Comment"
              }
            ]
          },
          "valueString": "Severe reduced apparent bone density of the vertebrae such that there is difficulty distinguishing between bone and adjacent soft tissues even when windowing appropriately. Usually predicted off the lateral view."
        },
        {
          "code": {
            "coding": [
              {
                "system": "http://snomed.info/sct",
                "code": "118589004",
                "display": "Threshold"
              }
            ]
          },
          "valueQuantity": {
            "value": 0.5,
            "unit": "1",
            "system": "http://unitsofmeasure.org",
            "code": "1"
          }
        },
        {
          "code": {
            "coding": [
              {
                "system": "http://snomed.info/sct",
                "code": "386136009",
                "display": "Standard deviation"
              }
            ]
          },
          "valueQuantity": {
            "value": 0.03588128459259126,
            "unit": "1",
            "system": "http://unitsofmeasure.org",
            "code": "1"
          }
        }
      ]
    },
    {
      "resourceType": "Observation",
      "id": "8e33fbbd-2f20-4a61-92f3-601ddee230ee",
      "status": "final",
      "code": {
        "coding": [
          {
            "system": "https://www.annalise.ai/guides",
            "code": "patient_rotated",
            "display": "Patient rotation"
          }
        ],
        "text": "Patient rotation"
      },
      "effectiveDateTime": "2024-02-26T14:05:03.658000+00:00",
      "valueCodeableConcept": {
        "coding": [
          {
            "system": "http://radlex.org",
            "code": "RID28472",
            "display": "present"
          }
        ],
        "text": "present"
      },
      "note": [
        {
          "text": "Patient rotation is present"
        }
      ],
      "bodySite": {
        "coding": [
          {
            "system": "http://radlex.org",
            "code": "RID29179",
            "display": "spinous process of vertebra"
          }
        ]
      },
      "derivedFrom": [
        {
          "reference": "#412cbeb9-6355-4cbb-bc1a-7a36a2db3972"
        }
      ],
      "component": [
        {
          "code": {
            "coding": [
              {
                "system": "http://radlex.org",
                "code": "RID28472",
                "display": "present"
              }
            ]
          },
          "valueString": "present"
        },
        {
          "code": {
            "coding": [
              {
                "system": "http://radlex.org",
                "code": "RID33",
                "display": "probably"
              }
            ]
          },
          "valueQuantity": {
            "value": 64.54493532294914,
            "unit": "percent",
            "system": "http://unitsofmeasure.org"
          }
        },
        {
          "code": {
            "coding": [
              {
                "system": "http://dicom.nema.org/resources/ontology/DCM",
                "code": "110180",
                "display": "Study Instance UID"
              }
            ]
          },
          "valueString": "1.2.826.0.1.3680043.8.498.29787505795955088203375994549087229509"
        },
        {
          "code": {
            "coding": [
              {
                "system": "http://dicom.nema.org/resources/ontology/DCM",
                "code": "112039",
                "display": "Tracking Identifier"
              }
            ]
          },
          "valueString": "2f3a98e9-2ff0-4f0c-9054-5c9711a1ef2f"
        },
        {
          "code": {
            "coding": [
              {
                "system": "http://dicom.nema.org/resources/ontology/DCM",
                "code": "112040",
                "display": "Tracking Unique Identifier"
              }
            ]
          },
          "valueString": "1.2.36.1.2001.1005.78.652085289406753794961673051041023299579212"
        },
        {
          "code": {
            "coding": [
              {
                "system": "http://snomed.info/sct",
                "code": "260870009",
                "display": "Priority"
              }
            ]
          },
          "valueInteger": 3
        },
        {
          "code": {
            "coding": [
              {
                "system": "http://snomed.info/sct",
                "code": "734841007",
                "display": "Name"
              }
            ]
          },
          "valueString": "normal"
        },
        {
          "code": {
            "coding": [
              {
                "system": "http://snomed.info/sct",
                "code": "272126005",
                "display": "Order values"
              }
            ]
          },
          "valueInteger": 1
        },
        {
          "code": {
            "coding": [
              {
                "system": "http://snomed.info/sct",
                "code": "261586004",
                "display": "Groups"
              }
            ]
          },
          "valueString": "3/TECHNICAL/3"
        },
        {
          "code": {
            "coding": [
              {
                "system": "http://dicom.nema.org/resources/ontology/DCM",
                "code": "121106",
                "display": "Comment"
              }
            ]
          },
          "valueString": "The spinous process is laterally displaced by more than a quarter of the interclavicular distance. Only the primary AP or PA view is assessed, not the Lateral view or any other view / postprocessed image. If the patient is severely scoliotic, this finding may be unreliable."
        },
        {
          "code": {
            "coding": [
              {
                "system": "http://snomed.info/sct",
                "code": "118589004",
                "display": "Threshold"
              }
            ]
          },
          "valueQuantity": {
            "value": 0.5,
            "unit": "1",
            "system": "http://unitsofmeasure.org",
            "code": "1"
          }
        },
        {
          "code": {
            "coding": [
              {
                "system": "http://snomed.info/sct",
                "code": "386136009",
                "display": "Standard deviation"
              }
            ]
          },
          "valueQuantity": {
            "value": 0.01699877217331934,
            "unit": "1",
            "system": "http://unitsofmeasure.org",
            "code": "1"
          }
        }
      ]
    },
    {
      "resourceType": "Observation",
      "id": "73dbab1b-5b5f-472c-afda-dbc156248ba6",
      "status": "final",
      "code": {
        "coding": [
          {
            "system": "https://www.annalise.ai/guides",
            "code": "pneumomediastinum",
            "display": "Pneumomediastinum"
          }
        ],
        "text": "Pneumomediastinum"
      },
      "effectiveDateTime": "2024-02-26T14:05:03.661000+00:00",
      "valueCodeableConcept": {
        "coding": [
          {
            "system": "http://radlex.org",
            "code": "RID28472",
            "display": "present"
          }
        ],
        "text": "present"
      },
      "note": [
        {
          "text": "Pneumomediastinum is present"
        }
      ],
      "bodySite": {
        "coding": [
          {
            "system": "http://radlex.org",
            "code": "RID1301",
            "display": "lung"
          }
        ]
      },
      "derivedFrom": [
        {
          "reference": "#412cbeb9-6355-4cbb-bc1a-7a36a2db3972"
        }
      ],
      "component": [
        {
          "code": {
            "coding": [
              {
                "system": "http://radlex.org",
                "code": "RID28472",
                "display": "present"
              }
            ]
          },
          "valueString": "present"
        },
        {
          "code": {
            "coding": [
              {
                "system": "http://radlex.org",
                "code": "RID33",
                "display": "probably"
              }
            ]
          },
          "valueQuantity": {
            "value": 3.199138199665071,
            "unit": "percent",
            "system": "http://unitsofmeasure.org"
          }
        },
        {
          "code": {
            "coding": [
              {
                "system": "http://dicom.nema.org/resources/ontology/DCM",
                "code": "110180",
                "display": "Study Instance UID"
              }
            ]
          },
          "valueString": "1.2.826.0.1.3680043.8.498.29787505795955088203375994549087229509"
        },
        {
          "code": {
            "coding": [
              {
                "system": "http://dicom.nema.org/resources/ontology/DCM",
                "code": "112039",
                "display": "Tracking Identifier"
              }
            ]
          },
          "valueString": "7236da70-8c26-4f43-9009-e55c3e386e2b"
        },
        {
          "code": {
            "coding": [
              {
                "system": "http://dicom.nema.org/resources/ontology/DCM",
                "code": "112040",
                "display": "Tracking Unique Identifier"
              }
            ]
          },
          "valueString": "1.2.36.1.2001.1005.78.413600082761998843022132193270292656558878"
        },
        {
          "code": {
            "coding": [
              {
                "system": "http://snomed.info/sct",
                "code": "260870009",
                "display": "Priority"
              }
            ]
          },
          "valueInteger": 1
        },
        {
          "code": {
            "coding": [
              {
                "system": "http://snomed.info/sct",
                "code": "734841007",
                "display": "Name"
              }
            ]
          },
          "valueString": "critical"
        },
        {
          "code": {
            "coding": [
              {
                "system": "http://snomed.info/sct",
                "code": "272126005",
                "display": "Order values"
              }
            ]
          },
          "valueInteger": 41
        },
        {
          "code": {
            "coding": [
              {
                "system": "http://snomed.info/sct",
                "code": "261586004",
                "display": "Groups"
              }
            ]
          },
          "valueString": "1/PRIORITY/1"
        },
        {
          "code": {
            "coding": [
              {
                "system": "http://dicom.nema.org/resources/ontology/DCM",
                "code": "121106",
                "display": "Comment"
              }
            ]
          },
          "valueString": "Gas within the mediastinum, typically outlining the pericardium and mediastinal margin. "
        },
        {
          "code": {
            "coding": [
              {
                "system": "http://snomed.info/sct",
                "code": "118589004",
                "display": "Threshold"
              }
            ]
          },
          "valueQuantity": {
            "value": 0.00024161423060488796,
            "unit": "1",
            "system": "http://unitsofmeasure.org",
            "code": "1"
          }
        },
        {
          "code": {
            "coding": [
              {
                "system": "http://snomed.info/sct",
                "code": "386136009",
                "display": "Standard deviation"
              }
            ]
          },
          "valueQuantity": {
            "value": 0.002220016380465469,
            "unit": "1",
            "system": "http://unitsofmeasure.org",
            "code": "1"
          }
        }
      ]
    },
    {
      "resourceType": "Observation",
      "id": "781feee8-64ca-4eb2-b465-512e8d41ba90",
      "status": "final",
      "code": {
        "coding": [
          {
            "system": "https://www.annalise.ai/guides",
            "code": "single_pulmonary_nodule",
            "display": "Solitary lung nodule"
          }
        ],
        "text": "Solitary lung nodule"
      },
      "effectiveDateTime": "2024-02-26T14:05:03.667000+00:00",
      "valueCodeableConcept": {
        "coding": [
          {
            "system": "http://radlex.org",
            "code": "RID28472",
            "display": "present"
          }
        ],
        "text": "present"
      },
      "note": [
        {
          "text": "Solitary lung nodule is present"
        }
      ],
      "bodySite": {
        "coding": [
          {
            "system": "http://radlex.org",
            "code": "RID1301",
            "display": "lung"
          }
        ]
      },
      "derivedFrom": [
        {
          "reference": "#412cbeb9-6355-4cbb-bc1a-7a36a2db3972"
        }
      ],
      "component": [
        {
          "code": {
            "coding": [
              {
                "system": "http://radlex.org",
                "code": "RID28472",
                "display": "present"
              }
            ]
          },
          "valueString": "present"
        },
        {
          "code": {
            "coding": [
              {
                "system": "http://radlex.org",
                "code": "RID33",
                "display": "probably"
              }
            ]
          },
          "valueQuantity": {
            "value": 11.19564869273306,
            "unit": "percent",
            "system": "http://unitsofmeasure.org"
          }
        },
        {
          "code": {
            "coding": [
              {
                "system": "http://dicom.nema.org/resources/ontology/DCM",
                "code": "110180",
                "display": "Study Instance UID"
              }
            ]
          },
          "valueString": "1.2.826.0.1.3680043.8.498.29787505795955088203375994549087229509"
        },
        {
          "code": {
            "coding": [
              {
                "system": "http://dicom.nema.org/resources/ontology/DCM",
                "code": "112039",
                "display": "Tracking Identifier"
              }
            ]
          },
          "valueString": "c2b025ca-aa21-459f-a8f6-0f8572d3ffea"
        },
        {
          "code": {
            "coding": [
              {
                "system": "http://dicom.nema.org/resources/ontology/DCM",
                "code": "112040",
                "display": "Tracking Unique Identifier"
              }
            ]
          },
          "valueString": "1.2.36.1.2001.1005.78.133395446120510918854117554514969900725252"
        },
        {
          "code": {
            "coding": [
              {
                "system": "http://snomed.info/sct",
                "code": "260870009",
                "display": "Priority"
              }
            ]
          },
          "valueInteger": 1
        },
        {
          "code": {
            "coding": [
              {
                "system": "http://snomed.info/sct",
                "code": "734841007",
                "display": "Name"
              }
            ]
          },
          "valueString": "critical"
        },
        {
          "code": {
            "coding": [
              {
                "system": "http://snomed.info/sct",
                "code": "272126005",
                "display": "Order values"
              }
            ]
          },
          "valueInteger": 68
        },
        {
          "code": {
            "coding": [
              {
                "system": "http://snomed.info/sct",
                "code": "261586004",
                "display": "Groups"
              }
            ]
          },
          "valueString": "2/MEDIUM/2"
        },
        {
          "code": {
            "coding": [
              {
                "system": "http://dicom.nema.org/resources/ontology/DCM",
                "code": "121106",
                "display": "Comment"
              }
            ]
          },
          "valueString": "Single rounded well-defined opacity. Measures less than 3cm."
        },
        {
          "code": {
            "coding": [
              {
                "system": "http://snomed.info/sct",
                "code": "118589004",
                "display": "Threshold"
              }
            ]
          },
          "valueQuantity": {
            "value": 0.001256381561313808,
            "unit": "1",
            "system": "http://unitsofmeasure.org",
            "code": "1"
          }
        },
        {
          "code": {
            "coding": [
              {
                "system": "http://snomed.info/sct",
                "code": "386136009",
                "display": "Standard deviation"
              }
            ]
          },
          "valueQuantity": {
            "value": 0.008060060917058937,
            "unit": "1",
            "system": "http://unitsofmeasure.org",
            "code": "1"
          }
        }
      ]
    },
    {
      "resourceType": "Observation",
      "id": "35d724f6-3083-472a-ba63-ba5ee47d966c",
      "status": "final",
      "code": {
        "coding": [
          {
            "system": "https://www.annalise.ai/guides",
            "code": "spine_arthritis",
            "display": "Spinal arthritis"
          }
        ],
        "text": "Spinal arthritis"
      },
      "effectiveDateTime": "2024-02-26T14:05:03.668000+00:00",
      "valueCodeableConcept": {
        "coding": [
          {
            "system": "http://radlex.org",
            "code": "RID28472",
            "display": "present"
          }
        ],
        "text": "present"
      },
      "note": [
        {
          "text": "Spinal arthritis is present"
        }
      ],
      "bodySite": {
        "coding": [
          {
            "system": "http://radlex.org",
            "code": "RID7889",
            "display": "joint of spine"
          }
        ]
      },
      "derivedFrom": [
        {
          "reference": "#412cbeb9-6355-4cbb-bc1a-7a36a2db3972"
        }
      ],
      "component": [
        {
          "code": {
            "coding": [
              {
                "system": "http://radlex.org",
                "code": "RID28472",
                "display": "present"
              }
            ]
          },
          "valueString": "present"
        },
        {
          "code": {
            "coding": [
              {
                "system": "http://radlex.org",
                "code": "RID33",
                "display": "probably"
              }
            ]
          },
          "valueQuantity": {
            "value": 63.0851773315365,
            "unit": "percent",
            "system": "http://unitsofmeasure.org"
          }
        },
        {
          "code": {
            "coding": [
              {
                "system": "http://dicom.nema.org/resources/ontology/DCM",
                "code": "110180",
                "display": "Study Instance UID"
              }
            ]
          },
          "valueString": "1.2.826.0.1.3680043.8.498.29787505795955088203375994549087229509"
        },
        {
          "code": {
            "coding": [
              {
                "system": "http://dicom.nema.org/resources/ontology/DCM",
                "code": "112039",
                "display": "Tracking Identifier"
              }
            ]
          },
          "valueString": "0aa51f20-9637-406e-897f-d550e65d6fc6"
        },
        {
          "code": {
            "coding": [
              {
                "system": "http://dicom.nema.org/resources/ontology/DCM",
                "code": "112040",
                "display": "Tracking Unique Identifier"
              }
            ]
          },
          "valueString": "1.2.36.1.2001.1005.78.821787836252820776668134734704052820345707"
        },
        {
          "code": {
            "coding": [
              {
                "system": "http://snomed.info/sct",
                "code": "260870009",
                "display": "Priority"
              }
            ]
          },
          "valueInteger": 2
        },
        {
          "code": {
            "coding": [
              {
                "system": "http://snomed.info/sct",
                "code": "734841007",
                "display": "Name"
              }
            ]
          },
          "valueString": "urgent"
        },
        {
          "code": {
            "coding": [
              {
                "system": "http://snomed.info/sct",
                "code": "272126005",
                "display": "Order values"
              }
            ]
          },
          "valueInteger": 117
        },
        {
          "code": {
            "coding": [
              {
                "system": "http://snomed.info/sct",
                "code": "261586004",
                "display": "Groups"
              }
            ]
          },
          "valueString": "3/TECHNICAL/3"
        },
        {
          "code": {
            "coding": [
              {
                "system": "http://dicom.nema.org/resources/ontology/DCM",
                "code": "121106",
                "display": "Comment"
              }
            ]
          },
          "valueString": "Near complete loss of intervertebral space, fusion of vertebrae, or heavy calcification of intervertebral discs at multiple levels."
        },
        {
          "code": {
            "coding": [
              {
                "system": "http://snomed.info/sct",
                "code": "118589004",
                "display": "Threshold"
              }
            ]
          },
          "valueQuantity": {
            "value": 0.6,
            "unit": "1",
            "system": "http://unitsofmeasure.org",
            "code": "1"
          }
        },
        {
          "code": {
            "coding": [
              {
                "system": "http://snomed.info/sct",
                "code": "386136009",
                "display": "Standard deviation"
              }
            ]
          },
          "valueQuantity": {
            "value": 0.03596893343630348,
            "unit": "1",
            "system": "http://unitsofmeasure.org",
            "code": "1"
          }
        }
      ]
    },
    {
      "resourceType": "Observation",
      "id": "fc4c8ec9-7c24-4f6d-849b-3a7bbb4a09e7",
      "status": "final",
      "code": {
        "coding": [
          {
            "system": "https://www.annalise.ai/guides",
            "code": "spine_wedge_fracture",
            "display": "Spinal wedge fracture"
          }
        ],
        "text": "Spinal wedge fracture"
      },
      "effectiveDateTime": "2024-02-26T14:05:03.670000+00:00",
      "valueCodeableConcept": {
        "coding": [
          {
            "system": "http://radlex.org",
            "code": "RID28472",
            "display": "present"
          }
        ],
        "text": "present"
      },
      "note": [
        {
          "text": "Spinal wedge fracture is present"
        }
      ],
      "bodySite": {
        "coding": [
          {
            "system": "http://radlex.org",
            "code": "RID7741",
            "display": "spine"
          }
        ]
      },
      "derivedFrom": [
        {
          "reference": "#412cbeb9-6355-4cbb-bc1a-7a36a2db3972"
        }
      ],
      "component": [
        {
          "code": {
            "coding": [
              {
                "system": "http://radlex.org",
                "code": "RID28472",
                "display": "present"
              }
            ]
          },
          "valueString": "present"
        },
        {
          "code": {
            "coding": [
              {
                "system": "http://dicom.nema.org/resources/ontology/DCM",
                "code": "110180",
                "display": "Study Instance UID"
              }
            ]
          },
          "valueString": "1.2.826.0.1.3680043.8.498.29787505795955088203375994549087229509"
        },
        {
          "code": {
            "coding": [
              {
                "system": "http://dicom.nema.org/resources/ontology/DCM",
                "code": "112039",
                "display": "Tracking Identifier"
              }
            ]
          },
          "valueString": "ba235670-38b5-444e-bca4-f27c0389ce98"
        },
        {
          "code": {
            "coding": [
              {
                "system": "http://dicom.nema.org/resources/ontology/DCM",
                "code": "112040",
                "display": "Tracking Unique Identifier"
              }
            ]
          },
          "valueString": "1.2.36.1.2001.1005.78.483366413672030889848938156805424227418843"
        },
        {
          "code": {
            "coding": [
              {
                "system": "http://snomed.info/sct",
                "code": "260870009",
                "display": "Priority"
              }
            ]
          },
          "valueInteger": 2
        },
        {
          "code": {
            "coding": [
              {
                "system": "http://snomed.info/sct",
                "code": "734841007",
                "display": "Name"
              }
            ]
          },
          "valueString": "urgent"
        },
        {
          "code": {
            "coding": [
              {
                "system": "http://snomed.info/sct",
                "code": "272126005",
                "display": "Order values"
              }
            ]
          },
          "valueInteger": 116
        },
        {
          "code": {
            "coding": [
              {
                "system": "http://snomed.info/sct",
                "code": "261586004",
                "display": "Groups"
              }
            ]
          },
          "valueString": "2/MEDIUM/2"
        },
        {
          "code": {
            "coding": [
              {
                "system": "http://dicom.nema.org/resources/ontology/DCM",
                "code": "121106",
                "display": "Comment"
              }
            ]
          },
          "valueString": "Acute or chronic compression, wedge, distraction or translated fractures. Typically seen on lateral view. Usually chronicity cannot be reliably assessed so this is not differentiated. For compression or wedge fractures, there should be more than 20% loss in anterior height or central height as measured to the nearest normal vertebra or posterior vertebral body height (whichever is larger)."
        },
        {
          "code": {
            "coding": [
              {
                "system": "http://snomed.info/sct",
                "code": "118589004",
                "display": "Threshold"
              }
            ]
          },
          "valueQuantity": {
            "value": 0.5,
            "unit": "1",
            "system": "http://unitsofmeasure.org",
            "code": "1"
          }
        },
        {
          "code": {
            "coding": [
              {
                "system": "http://snomed.info/sct",
                "code": "386136009",
                "display": "Standard deviation"
              }
            ]
          },
          "valueQuantity": {
            "value": 0.008508538803055505,
            "unit": "1",
            "system": "http://unitsofmeasure.org",
            "code": "1"
          }
        }
      ]
    },
    {
      "resourceType": "Observation",
      "id": "92f8b5fe-5f58-46f5-89c1-c1905411b3da",
      "status": "final",
      "code": {
        "coding": [
          {
            "system": "http://snomed.info/sct",
            "code": "246501002",
            "display": "AI technique"
          }
        ]
      },
      "valueString": "Annalise AI CXR Technique"
    }
  ],
  "status": "final",
  "category": [
    {
      "coding": [
        {
          "system": "http://terminology.hl7.org/CodeSystem/v2-0074",
          "code": "RAD",
          "display": "Radiology"
        }
      ]
    }
  ],
  "code": {
    "coding": [
      {
        "system": "http://loinc.org",
        "code": "68604-8",
        "display": "Radiology Diagnostic study note"
      }
    ]
  },
  "subject": {
    "reference": "#6fe18ad6-e1a0-45dd-838a-3393b0ac9b2a"
  },
  "result": [
    {
      "reference": "#eae26a1f-9128-48be-b309-f18ca1397c81"
    },
    {
      "reference": "#5c6123fb-1ecd-4f3f-ade1-04318a4a67f6"
    },
    {
      "reference": "#851d59f2-aed1-4279-876d-b40305d12fa1"
    },
    {
      "reference": "#d7bff305-db0a-40c0-8503-43418481d248"
    },
    {
      "reference": "#c9c582cd-4717-4ce1-a8b0-10b7e6769f74"
    },
    {
      "reference": "#05fb39c9-b727-4de0-93ec-408f6bc9951c"
    },
    {
      "reference": "#b1fbbb86-90b3-4587-9dcb-616b315e1486"
    },
    {
      "reference": "#392379e7-60cb-4609-9c1b-04049928b82d"
    },
    {
      "reference": "#775eb312-392e-43d0-a2be-51ef8d4613b9"
    },
    {
      "reference": "#6f00ff10-033d-41a2-8b13-072a6466ee3b"
    },
    {
      "reference": "#1ba1f53c-41d3-4858-9ef4-e798a01f6204"
    },
    {
      "reference": "#43e71b5a-13fb-415d-8eeb-d9b1a986caa1"
    },
    {
      "reference": "#e7212a95-03e6-44f1-b131-079174f7ec91"
    },
    {
      "reference": "#0252bf8c-ac8c-4e64-a899-c9ff2f7f146e"
    },
    {
      "reference": "#8e33fbbd-2f20-4a61-92f3-601ddee230ee"
    },
    {
      "reference": "#73dbab1b-5b5f-472c-afda-dbc156248ba6"
    },
    {
      "reference": "#781feee8-64ca-4eb2-b465-512e8d41ba90"
    },
    {
      "reference": "#35d724f6-3083-472a-ba63-ba5ee47d966c"
    },
    {
      "reference": "#fc4c8ec9-7c24-4f6d-849b-3a7bbb4a09e7"
    },
    {
      "reference": "#92f8b5fe-5f58-46f5-89c1-c1905411b3da"
    }
  ],
  "imagingStudy": [
    {
      "reference": "#412cbeb9-6355-4cbb-bc1a-7a36a2db3972"
    }
  ],
  "conclusion": "Annalise generated FHIR"
}